Time (s),Raw ADC,Voltage (V)
20.761,549,2.681
21.025,548,2.676
21.289,547,2.671
21.553,548,2.676
21.817,549,2.681
22.081,549,2.681
22.345,547,2.671
22.609,548,2.676
22.873,550,2.686
23.137,550,2.686
23.401,547,2.671
23.665,547,2.671
23.929,548,2.676
24.193,551,2.69
24.457,548,2.676
24.721,547,2.671
24.985,548,2.676
25.249,550,2.686
25.513,549,2.681
25.777,547,2.671
26.041,549,2.681
26.305,549,2.681
26.569,551,2.69
26.833,548,2.676
27.097,547,2.671
27.361,549,2.681
27.625,557,2.72
27.889,548,2.676
28.153,547,2.671
28.417,559,2.729
28.681,549,2.681
28.945,549,2.681
29.209,547,2.671
29.473,547,2.671
29.737,549,2.681
30.001,560,2.734
30.265,548,2.676
30.529,547,2.671
30.793,557,2.72
31.057,550,2.686
31.321,549,2.681
31.585,548,2.676
31.849,548,2.676
32.113,550,2.686
32.377,550,2.686
32.641,548,2.676
32.905,547,2.671
33.169,549,2.681
33.433,550,2.686
33.697,548,2.676
33.961,547,2.671
34.225,548,2.676
34.489,559,2.729
34.753,549,2.681
35.017,547,2.671
35.281,547,2.671
35.545,549,2.681
35.809,551,2.69
36.073,548,2.676
36.337,546,2.666
36.601,553,2.7
36.865,550,2.686
37.129,549,2.681
37.393,547,2.671
37.657,548,2.676
37.921,550,2.686
38.185,550,2.686
38.449,548,2.676
38.713,547,2.671
38.977,548,2.676
39.241,550,2.686
39.505,548,2.676
39.769,547,2.671
40.033,548,2.676
40.297,561,2.739
40.561,549,2.681
40.825,547,2.671
41.089,557,2.72
41.353,549,2.681
41.617,550,2.686
41.881,548,2.676
42.145,547,2.671
42.409,550,2.686
42.673,549,2.681
42.937,549,2.681
43.201,547,2.671
43.465,547,2.671
43.729,549,2.681
43.993,550,2.686
44.257,547,2.671
44.521,547,2.671
44.785,559,2.729
45.049,551,2.69
45.313,548,2.676
45.577,547,2.671
45.841,549,2.681
46.105,551,2.69
46.369,549,2.681
46.633,547,2.671
46.897,559,2.729
47.161,549,2.681
47.425,550,2.686
47.689,548,2.676
47.953,547,2.671
48.217,549,2.681
48.481,550,2.686
48.745,549,2.681
49.009,547,2.671
49.273,548,2.676
49.537,550,2.686
49.801,549,2.681
50.065,548,2.676
50.329,547,2.671
50.593,549,2.681
50.857,550,2.686
51.121,548,2.676
51.385,547,2.671
51.649,548,2.676
51.913,551,2.69
52.177,550,2.686
52.441,547,2.671
52.705,559,2.729
52.969,549,2.681
53.233,550,2.686
53.497,548,2.676
53.761,547,2.671
54.025,550,2.686
54.289,549,2.681
54.553,549,2.681
54.817,547,2.671
55.081,548,2.676
55.345,550,2.686
55.609,550,2.686
55.873,547,2.671
56.137,547,2.671
56.401,558,2.725
56.665,549,2.681
56.929,549,2.681
57.193,547,2.671
57.457,548,2.676
57.721,550,2.686
57.985,549,2.681
58.249,547,2.671
58.513,550,2.686
58.777,549,2.681
59.041,550,2.686
59.305,548,2.676
59.569,547,2.671
59.833,550,2.686
60.097,560,2.734
60.361,549,2.681
60.625,547,2.671
60.889,555,2.71
61.153,549,2.681
61.417,549,2.681
61.681,548,2.676
61.945,547,2.671
62.209,550,2.686
62.473,550,2.686
62.737,548,2.676
63.001,547,2.671
63.265,548,2.676
63.529,550,2.686
63.793,549,2.681
64.057,547,2.671
64.321,548,2.676
64.585,549,2.681
64.849,550,2.686
65.113,548,2.676
65.377,547,2.671
65.641,549,2.681
65.905,551,2.69
66.169,549,2.681
66.433,547,2.671
66.697,553,2.7
66.961,549,2.681
67.225,549,2.681
67.489,548,2.676
67.753,547,2.671
68.017,550,2.686
68.281,555,2.71
68.545,548,2.676
68.809,547,2.671
69.073,548,2.676
69.337,550,2.686
69.601,549,2.681
69.865,547,2.671
70.129,548,2.676
70.393,551,2.69
70.657,550,2.686
70.921,548,2.676
71.185,547,2.671
71.449,549,2.681
71.713,550,2.686
71.977,549,2.681
72.241,547,2.671
72.505,548,2.676
72.769,557,2.72
73.033,549,2.681
73.297,548,2.676
73.561,547,2.671
73.825,549,2.681
74.089,551,2.69
74.353,548,2.676
74.617,547,2.671
74.881,550,2.686
75.145,550,2.686
75.409,548,2.676
75.673,547,2.671
75.937,547,2.671
76.201,549,2.681
76.465,550,2.686
76.729,548,2.676
76.993,547,2.671
77.257,555,2.71
77.521,550,2.686
77.785,548,2.676
78.049,547,2.671
78.313,548,2.676
78.577,550,2.686
78.841,549,2.681
79.105,547,2.671
79.369,548,2.676
79.633,560,2.734
79.897,550,2.686
80.161,548,2.676
80.425,547,2.671
80.689,548,2.676
80.953,550,2.686
81.217,548,2.676
81.481,547,2.671
81.745,549,2.681
82.009,552,2.695
82.273,549,2.681
82.537,547,2.671
82.801,551,2.69
83.065,549,2.681
83.329,550,2.686
83.593,548,2.676
83.857,547,2.671
84.121,549,2.681
84.385,561,2.739
84.649,548,2.676
84.913,547,2.671
85.177,559,2.729
85.441,549,2.681
85.705,550,2.686
85.969,547,2.671
86.233,547,2.671
86.497,550,2.686
86.761,560,2.734
87.025,548,2.676
87.289,547,2.671
87.553,559,2.729
87.817,550,2.686
88.081,549,2.681
88.345,547,2.671
88.609,548,2.676
88.873,550,2.686
89.137,550,2.686
89.401,548,2.676
89.665,548,2.676
89.929,548,2.676
90.193,550,2.686
90.457,548,2.676
90.721,547,2.671
90.985,548,2.676
91.249,550,2.686
91.513,549,2.681
91.777,547,2.671
92.041,549,2.681
92.305,549,2.681
92.569,551,2.69
92.833,548,2.676
93.097,547,2.671
93.361,549,2.681
93.625,560,2.734
93.889,549,2.681
94.153,547,2.671
94.417,558,2.725
94.681,549,2.681
94.945,549,2.681
95.209,548,2.676
95.473,547,2.671
95.737,550,2.686
96.001,550,2.686
96.265,548,2.676
96.529,547,2.671
96.793,548,2.676
97.057,550,2.686
97.321,549,2.681
97.585,547,2.671
97.849,548,2.676
98.113,550,2.686
98.377,550,2.686
98.641,548,2.676
98.905,547,2.671
99.169,548,2.676
99.433,550,2.686
99.697,548,2.676
99.961,547,2.671
100.225,548,2.676
100.492,550,2.686
100.759,547,2.671
101.026,550,2.686
101.293,548,2.676
101.56,549,2.681
101.827,549,2.681
102.094,547,2.671
102.361,550,2.686
102.628,547,2.671
102.895,549,2.681
103.162,548,2.676
103.429,548,2.676
103.696,550,2.686
103.963,546,2.666
104.23,549,2.681
104.497,548,2.676
104.764,559,2.729
105.031,549,2.681
105.298,547,2.671
105.565,550,2.686
105.832,547,2.671
106.099,558,2.725
106.366,548,2.676
106.633,548,2.676
106.9,550,2.686
107.167,547,2.671
107.434,558,2.725
107.701,548,2.676
107.968,549,2.681
108.235,550,2.686
108.502,547,2.671
108.769,560,2.734
109.036,549,2.681
109.303,549,2.681
109.57,549,2.681
109.837,547,2.671
110.104,557,2.72
110.371,547,2.671
110.638,549,2.681
110.905,548,2.676
111.172,548,2.676
111.439,551,2.69
111.706,547,2.671
111.973,549,2.681
112.24,548,2.676
112.507,548,2.676
112.774,549,2.681
113.041,547,2.671
113.308,550,2.686
113.575,548,2.676
113.842,549,2.681
114.109,549,2.681
114.376,551,2.69
114.643,550,2.686
114.91,547,2.671
115.177,549,2.681
115.444,548,2.676
115.711,559,2.729
115.978,550,2.686
116.245,547,2.671
116.512,549,2.681
116.779,548,2.676
117.046,555,2.71
117.313,549,2.681
117.58,547,2.671
117.847,549,2.681
118.114,547,2.671
118.381,553,2.7
118.648,549,2.681
118.915,548,2.676
119.182,550,2.686
119.449,547,2.671
119.716,552,2.695
119.983,548,2.676
120.25,548,2.676
120.517,550,2.686
120.784,547,2.671
121.051,552,2.695
121.318,548,2.676
121.585,549,2.681
121.852,549,2.681
122.119,547,2.671
122.386,551,2.69
